{
  "resourceType": "Bundle",
  "entry": [
    {
      "resource": {
        "resourceType": "Library",
        "id": "library-adult-outpatient-encounters-FHIR3",
        "version": "1.1.000",
        "name": "AdultOutpatientEncounters_FHIR3",
        "status": "active",
        "experimental": true,
        "type": {
          "coding": [
            {
              "system": "http://hl7.org/fhir/codesystem-library-type.html",
              "code": "logic-library"
            }
          ]
        },
        "relatedArtifact": [
          {
            "type": "depends-on",
            "resource": {
              "reference": "Library/library-fhir-helpers"
            }
          }
        ],
        "dataRequirement": [
          {
            "type": "Encounter",
            "codeFilter": [
              {
                "path": "type",
                "valueSetString": "http://cts.nlm.nih.gov/fhir/ValueSet/2.16.840.1.113883.3.464.1003.101.12.1001"
              }
            ]
          },
          {
            "type": "Encounter",
            "codeFilter": [
              {
                "path": "type",
                "valueSetString": "http://cts.nlm.nih.gov/fhir/ValueSet/2.16.840.1.113883.3.526.3.1240"
              }
            ]
          },
          {
            "type": "Encounter",
            "codeFilter": [
              {
                "path": "type",
                "valueSetString": "http://cts.nlm.nih.gov/fhir/ValueSet/2.16.840.1.113883.3.464.1003.101.12.1025"
              }
            ]
          },
          {
            "type": "Encounter",
            "codeFilter": [
              {
                "path": "type",
                "valueSetString": "http://cts.nlm.nih.gov/fhir/ValueSet/2.16.840.1.113883.3.464.1003.101.12.1023"
              }
            ]
          },
          {
            "type": "Encounter",
            "codeFilter": [
              {
                "path": "type",
                "valueSetString": "http://cts.nlm.nih.gov/fhir/ValueSet/2.16.840.1.113883.3.464.1003.101.12.1016"
              }
            ]
          }
        ],
        "content": [
          {
            "contentType": "text/cql",
            "data": ""
          }
        ]
      },
      "request": {
        "method": "PUT",
        "url": "Library/library-adult-outpatient-encounters-FHIR3"
      }
    },
    {
      "resource": {
        "resourceType": "Library",
        "id": "library-advanced-illness-and-frailty-FHIR3",
        "version": "4.0.000",
        "name": "AdvancedIllnessandFrailtyExclusion_FHIR3",
        "status": "active",
        "experimental": true,
        "type": {
          "coding": [
            {
              "system": "http://hl7.org/fhir/codesystem-library-type.html",
              "code": "logic-library"
            }
          ]
        },
        "relatedArtifact": [
          {
            "type": "depends-on",
            "resource": {
              "reference": "Library/library-fhir-helpers"
            }
          },
          {
            "type": "depends-on",
            "resource": {
              "reference": "Library/library-mat-global-common-functions-FHIR3"
            }
          }
        ],
        "dataRequirement": [
          {
            "type": "Encounter",
            "codeFilter": [
              {
                "path": "type",
                "valueSetString": "http://cts.nlm.nih.gov/fhir/ValueSet/2.16.840.1.113883.3.666.5.307"
              }
            ]
          },
          {
            "type": "Encounter",
            "codeFilter": [
              {
                "path": "type",
                "valueSetString": "http://cts.nlm.nih.gov/fhir/ValueSet/2.16.840.1.113883.3.117.1.7.1.292"
              }
            ]
          },
          {
            "type": "Condition",
            "codeFilter": [
              {
                "path": "id"
              }
            ]
          },
          {
            "type": "Condition",
            "codeFilter": [
              {
                "path": "id"
              }
            ]
          },
          {
            "type": "Location",
            "codeFilter": [
              {
                "path": "id"
              }
            ]
          },
          {
            "type": "Encounter",
            "codeFilter": [
              {
                "path": "type",
                "valueSetString": "http://cts.nlm.nih.gov/fhir/ValueSet/2.16.840.1.113762.1.4.1111.143"
              }
            ]
          },
          {
            "type": "Encounter",
            "codeFilter": [
              {
                "path": "type",
                "valueSetString": "http://cts.nlm.nih.gov/fhir/ValueSet/2.16.840.1.113883.3.117.1.7.1.292"
              }
            ]
          },
          {
            "type": "Condition",
            "codeFilter": [
              {
                "path": "code",
                "valueSetString": "urn:oid:2.16.840.1.113883.3.464.1003.110.12.1082"
              }
            ]
          },
          {
            "type": "Encounter",
            "codeFilter": [
              {
                "path": "type",
                "valueSetString": "urn:oid:2.16.840.1.113883.3.464.1003.101.12.1087"
              }
            ]
          },
          {
            "type": "Encounter",
            "codeFilter": [
              {
                "path": "type",
                "valueSetString": "urn:oid:2.16.840.1.113883.3.464.1003.101.12.1086"
              }
            ]
          },
          {
            "type": "Encounter",
            "codeFilter": [
              {
                "path": "type",
                "valueSetString": "http://cts.nlm.nih.gov/fhir/ValueSet/2.16.840.1.113883.3.464.1003.101.12.1085"
              }
            ]
          },
          {
            "type": "Encounter",
            "codeFilter": [
              {
                "path": "type",
                "valueSetString": "urn:oid:2.16.840.1.113883.3.464.1003.101.12.1084"
              }
            ]
          },
          {
            "type": "Encounter",
            "codeFilter": [
              {
                "path": "type",
                "valueSetString": "urn:oid:2.16.840.1.113883.3.464.1003.101.12.1014"
              }
            ]
          },
          {
            "type": "Encounter",
            "codeFilter": [
              {
                "path": "type",
                "valueSetString": "urn:oid:2.16.840.1.113883.3.464.1003.101.12.1012"
              }
            ]
          },
          {
            "type": "Encounter",
            "codeFilter": [
              {
                "path": "type",
                "valueSetString": "urn:oid:2.16.840.1.113883.3.464.1003.101.12.1083"
              }
            ]
          },
          {
            "type": "MedicationDispense",
            "codeFilter": [
              {
                "path": "medication",
                "valueSetString": "urn:oid:2.16.840.1.113883.3.464.1003.196.12.1510"
              }
            ]
          },
          {
            "type": "DeviceRequest",
            "codeFilter": [
              {
                "path": "code",
                "valueSetString": "urn:oid:2.16.840.1.113883.3.464.1003.118.12.1300"
              }
            ]
          },
          {
            "type": "DeviceUseStatement"
          },
          {
            "type": "Condition",
            "codeFilter": [
              {
                "path": "code",
                "valueSetString": "urn:oid:2.16.840.1.113883.3.464.1003.113.12.1074"
              }
            ]
          },
          {
            "type": "Encounter",
            "codeFilter": [
              {
                "path": "type",
                "valueSetString": "urn:oid:2.16.840.1.113883.3.464.1003.101.12.1088"
              }
            ]
          },
          {
            "type": "Observation",
            "codeFilter": [
              {
                "path": "code",
                "valueSetString": "urn:oid:2.16.840.1.113883.3.464.1003.113.12.1075"
              }
            ]
          }
        ],
        "content": [
          {
            "contentType": "text/cql",
            "data": ""
          }
        ]
      },
      "request": {
        "method": "PUT",
        "url": "Library/library-advanced-illness-and-frailty-FHIR3"
      }
    },
    {
      "resource": {
        "resourceType": "Library",
        "id": "library-fhir-helpers",
        "version": "3.0.0",
        "name": "FHIRHelpers",
        "status": "active",
        "experimental": true,
        "type": {
          "coding": [
            {
              "system": "http://hl7.org/fhir/codesystem-library-type.html",
              "code": "logic-library"
            }
          ]
        },
        "content": [
          {
            "contentType": "text/cql",
            "data": ""
          }
        ]
      },
      "request": {
        "method": "PUT",
        "url": "Library/library-fhir-helpers"
      }
    },
    {
      "resource": {
        "resourceType": "Library",
        "id": "library-hospice-FHIR3",
        "version": "1.0.000",
        "name": "Hospice_FHIR3",
        "status": "active",
        "experimental": true,
        "type": {
          "coding": [
            {
              "system": "http://hl7.org/fhir/codesystem-library-type.html",
              "code": "logic-library"
            }
          ]
        },
        "relatedArtifact": [
          {
            "type": "depends-on",
            "resource": {
              "reference": "Library/library-mat-global-common-functions-FHIR3"
            }
          },
          {
            "type": "depends-on",
            "resource": {
              "reference": "Library/library-fhir-helpers"
            }
          }
        ],
        "dataRequirement": [
          {
            "type": "Encounter",
            "codeFilter": [
              {
                "path": "type",
                "valueSetString": "http://cts.nlm.nih.gov/fhir/ValueSet/2.16.840.1.113883.3.666.5.307"
              }
            ]
          },
          {
            "type": "Encounter",
            "codeFilter": [
              {
                "path": "type",
                "valueSetString": "http://cts.nlm.nih.gov/fhir/ValueSet/2.16.840.1.113883.3.117.1.7.1.292"
              }
            ]
          },
          {
            "type": "Condition",
            "codeFilter": [
              {
                "path": "id"
              }
            ]
          },
          {
            "type": "Condition",
            "codeFilter": [
              {
                "path": "id"
              }
            ]
          },
          {
            "type": "Location",
            "codeFilter": [
              {
                "path": "id"
              }
            ]
          },
          {
            "type": "Encounter",
            "codeFilter": [
              {
                "path": "type",
                "valueSetString": "http://cts.nlm.nih.gov/fhir/ValueSet/2.16.840.1.113762.1.4.1111.143"
              }
            ]
          },
          {
            "type": "Encounter",
            "codeFilter": [
              {
                "path": "type",
                "valueSetString": "http://cts.nlm.nih.gov/fhir/ValueSet/2.16.840.1.113883.3.117.1.7.1.292"
              }
            ]
          },
          {
            "type": "Encounter",
            "codeFilter": [
              {
                "path": "type",
                "valueSetString": "http://cts.nlm.nih.gov/fhir/ValueSet/2.16.840.1.113883.3.666.5.307"
              }
            ]
          },
          {
            "type": "ProcedureRequest",
            "codeFilter": [
              {
                "path": "code",
                "valueSetString": "http://cts.nlm.nih.gov/fhir/ValueSet/2.16.840.1.113762.1.4.1108.15"
              }
            ]
          },
          {
            "type": "Procedure",
            "codeFilter": [
              {
                "path": "code",
                "valueSetString": "http://cts.nlm.nih.gov/fhir/ValueSet/2.16.840.1.113762.1.4.1108.15"
              }
            ]
          }
        ],
        "content": [
          {
            "contentType": "text/cql",
            "data": ""
          }
        ]
      },
      "request": {
        "method": "PUT",
        "url": "Library/library-hospice-FHIR3"
      }
    },
    {
      "resource": {
        "resourceType": "Library",
        "id": "library-mat-global-common-functions-FHIR3",
        "version": "2.0.000",
        "name": "MATGlobalCommonFunctions_FHIR3",
        "status": "active",
        "experimental": true,
        "type": {
          "coding": [
            {
              "system": "http://hl7.org/fhir/codesystem-library-type.html",
              "code": "logic-library"
            }
          ]
        },
        "relatedArtifact": [
          {
            "type": "depends-on",
            "resource": {
              "reference": "Library/library-fhir-helpers"
            }
          }
        ],
        "dataRequirement": [
          {
            "type": "Encounter",
            "codeFilter": [
              {
                "path": "type",
                "valueSetString": "http://cts.nlm.nih.gov/fhir/ValueSet/2.16.840.1.113883.3.666.5.307"
              }
            ]
          },
          {
            "type": "Encounter",
            "codeFilter": [
              {
                "path": "type",
                "valueSetString": "http://cts.nlm.nih.gov/fhir/ValueSet/2.16.840.1.113883.3.117.1.7.1.292"
              }
            ]
          },
          {
            "type": "Condition",
            "codeFilter": [
              {
                "path": "id"
              }
            ]
          },
          {
            "type": "Condition",
            "codeFilter": [
              {
                "path": "id"
              }
            ]
          },
          {
            "type": "Location",
            "codeFilter": [
              {
                "path": "id"
              }
            ]
          },
          {
            "type": "Encounter",
            "codeFilter": [
              {
                "path": "type",
                "valueSetString": "http://cts.nlm.nih.gov/fhir/ValueSet/2.16.840.1.113762.1.4.1111.143"
              }
            ]
          },
          {
            "type": "Encounter",
            "codeFilter": [
              {
                "path": "type",
                "valueSetString": "http://cts.nlm.nih.gov/fhir/ValueSet/2.16.840.1.113883.3.117.1.7.1.292"
              }
            ]
          }
        ],
        "content": [
          {
            "contentType": "text/cql",
            "data": ""
          }
        ]
      },
      "request": {
        "method": "PUT",
        "url": "Library/library-mat-global-common-functions-FHIR3"
      }
    },
    {
      "resource": {
        "resourceType": "Library",
        "id": "library-supplemental-data-elements-FHIR3",
        "version": "1.0.0",
        "name": "SupplementalDataElements_FHIR3",
        "status": "active",
        "experimental": true,
        "type": {
          "coding": [
            {
              "system": "http://hl7.org/fhir/codesystem-library-type.html",
              "code": "logic-library"
            }
          ]
        },
        "relatedArtifact": [
          {
            "type": "depends-on",
            "resource": {
              "reference": "Library/library-fhir-helpers"
            }
          }
        ],
        "dataRequirement": [
          {
            "type": "Coverage",
            "codeFilter": [
              {
                "path": "type",
                "valueSetString": "http://cts.nlm.nih.gov/fhir/ValueSet/2.16.840.1.114222.4.11.3591"
              }
            ]
          }
        ],
        "content": [
          {
            "contentType": "text/cql",
            "data": ""
          }
        ]
      },
      "request": {
        "method": "PUT",
        "url": "Library/library-supplemental-data-elements-FHIR3"
      }
    },
    {
      "resource": {
        "resourceType": "Library",
        "id": "library-vte-icu-FHIR3",
        "version": "2.4.000",
        "name": "VTEICU_FHIR3",
        "status": "active",
        "experimental": true,
        "type": {
          "coding": [
            {
              "system": "http://hl7.org/fhir/codesystem-library-type.html",
              "code": "logic-library"
            }
          ]
        },
        "relatedArtifact": [
          {
            "type": "depends-on",
            "resource": {
              "reference": "Library/library-fhir-helpers"
            }
          },
          {
            "type": "depends-on",
            "resource": {
              "reference": "Library/library-mat-global-common-functions-FHIR3"
            }
          }
        ],
        "dataRequirement": [
          {
            "type": "Encounter",
            "codeFilter": [
              {
                "path": "type",
                "valueSetString": "http://cts.nlm.nih.gov/fhir/ValueSet/2.16.840.1.113883.3.666.5.307"
              }
            ]
          },
          {
            "type": "Encounter",
            "codeFilter": [
              {
                "path": "type",
                "valueSetString": "http://cts.nlm.nih.gov/fhir/ValueSet/2.16.840.1.113883.3.117.1.7.1.292"
              }
            ]
          },
          {
            "type": "Condition",
            "codeFilter": [
              {
                "path": "id"
              }
            ]
          },
          {
            "type": "Condition",
            "codeFilter": [
              {
                "path": "id"
              }
            ]
          },
          {
            "type": "Location",
            "codeFilter": [
              {
                "path": "id"
              }
            ]
          },
          {
            "type": "Encounter",
            "codeFilter": [
              {
                "path": "type",
                "valueSetString": "http://cts.nlm.nih.gov/fhir/ValueSet/2.16.840.1.113762.1.4.1111.143"
              }
            ]
          },
          {
            "type": "Encounter",
            "codeFilter": [
              {
                "path": "type",
                "valueSetString": "http://cts.nlm.nih.gov/fhir/ValueSet/2.16.840.1.113883.3.117.1.7.1.292"
              }
            ]
          }
        ],
        "content": [
          {
            "contentType": "text/cql",
            "data": ""
          }
        ]
      },
      "request": {
        "method": "PUT",
        "url": "Library/library-vte-icu-FHIR3"
      }
    }
  ]
}